##BLOCKS= 1          
Plate:	Plate#1	1.3	PlateFormat	Well Scan	Absorbance	Raw	FALSE	9	Fill	3				1	600	1	12	96	1	8	None	
	Temperature(¡C)	1	2	3	4	5	6	7	8	9	10	11	12		
0:00	24.20	1.5871	1.3929	1.5261	1.6186	1.721	1.588	1.383	1.6496	0.9078	1.1017	1.8685	1.8434		
		1.334	1.6826	1.3083	1.2814	1.6418	1.4889	1.4412	1.1624	1.1723	1.2878	1.1139	1.6149		
		1.5627	1.6028	0.6565	1.5943	1.5588	0.2914	0.6272	1.7643	1.5482	1.495	1.4822	1.3172		
		1.4651	1.69	1.8558	0.6732	1.374	1.1687	1.1907	0.9797	1.6561	1.4074	1.3907	1.4109		
		1.0358	1.6836	1.4681	1.4112	1.0197	1.2263	1.2904	1.2559	1.2604	1.9199	1.619	1.504		
		1.4711	1.7152	1.5079	1.5807	1.8072	0.782	1.0847	1.7478	1.5897	1.1124	1.7242	1.6327		
		1.7303	1.1532	1.465	1.5646	0.5865	1.533	1.6667	1.7353	1.6001	1.4206	1.7254	1.3676		
		2.1604	1.9244	1.6625	1.1523	1.6783	1.3903	1.3364	1.7431	1.6521	0.7822	1.571	1.7483		
		
0:20	24.20	1.4784	1.4108	1.5103	1.6217	1.7085	1.5838	1.3797	1.6243	0.8208	1.0543	1.8673	1.8535		
		1.2842	1.707	1.2371	1.3003	1.7058	1.4413	1.4349	0.6759	1.246	1.3534	1.0227	1.6509		
		1.4147	1.5807	0.5259	1.6091	1.73	0.286	0.5521	1.7735	1.5447	1.5055	1.3901	1.2656		
		1.4821	1.6977	1.868	0.8313	1.0125	1.214	1.2085	0.9092	1.4657	1.3724	1.4609	1.441		
		0.6213	1.6834	1.5062	1.3295	0.8784	1.2759	1.1711	1.1389	0.8424	1.8524	1.675	1.4413		
		1.4454	1.7683	1.5709	1.5832	1.8491	0.7874	0.6966	1.7395	1.5975	0.7214	1.7393	1.6695		
		1.7125	1.3093	1.4525	1.5184	0.9951	1.4964	1.6762	1.7507	1.5744	1.4245	1.7386	1.46		
		2.149	1.9325	1.645	1.0991	1.6263	1.3697	1.1998	1.7407	1.6709	0.8601	1.5604	1.7075		
		
0:40	24.30	1.6338	1.5039	1.5453	1.6812	1.6704	1.5053	1.5211	1.6768	0.8879	1.3117	1.886	1.9267		
		1.2421	1.7666	1.2799	1.4818	1.707	1.5222	1.4436	0.7434	1.3707	1.3366	1.044	1.7041		
		1.5444	1.657	0.7671	1.6898	1.7573	0.6891	0.5492	1.8118	1.5731	1.5447	1.5385	1.3157		
		1.6621	1.7348	1.9373	1.1178	0.7963	1.3335	1.4322	1.1125	1.6568	1.3943	1.5256	1.5593		
		1.0413	1.7501	1.5429	1.5727	1.2018	1.4732	1.2806	1.0803	1.0861	1.8908	1.6511	1.4634		
		1.457	1.7767	1.6569	1.6695	1.9176	0.8356	0.8387	1.7414	1.6478	0.8618	1.7542	1.7006		
		1.8184	1.2465	1.5257	1.5768	0.9629	1.5763	1.6991	1.8233	1.6494	1.492	1.8607	1.4266		
		2.1743	1.9735	1.6779	1.2302	1.6578	1.4433	1.3655	1.783	1.751	0.9946	1.5911	1.8263		
		
1:00	24.30	1.6323	1.4056	1.5519	1.5965	1.7656	1.5658	1.3634	1.6123	0.767	1.0613	1.8353	1.7584		
		1.3119	1.6826	1.3468	1.2696	1.7004	1.5022	1.4323	0.7449	1.0949	1.3347	1.0828	1.6003		
		1.5123	1.5897	0.5891	1.5849	1.6944	0.2769	0.4635	1.7335	1.5081	1.4852	1.3714	1.2892		
		1.4012	1.6978	1.8432	0.7308	1.2877	1.2231	1.0466	1.2135	1.5487	1.3887	1.4364	1.439		
		0.9524	1.6819	1.4307	1.542	0.8651	0.9342	1.1466	1.4367	1.0583	1.8252	1.6535	1.4763		
		1.4071	1.7943	1.6299	1.5772	1.7843	0.6995	0.7227	1.669	1.5852	0.642	1.708	1.6303		
		1.7401	1.1046	1.3945	1.5448	0.6662	1.5045	1.6937	1.7272	1.5561	1.3853	1.712	1.4858		
		2.1977	1.9114	1.6051	0.874	1.585	1.3468	1.2291	1.7496	1.6545	0.5585	1.5512	1.6813		
		
1:20	24.40	1.4945	1.4097	1.509	1.5731	1.7237	1.5676	1.3377	1.5875	0.7426	1.0709	1.8671	1.7267		
		1.225	1.6646	1.3167	1.1607	1.7089	1.5462	1.4206	0.3129	1.082	1.3271	0.9905	1.6338		
		1.5197	1.5634	0.4715	1.5958	1.7151	0.4888	0.3566	1.7323	1.4914	1.5032	1.3359	1.2348		
		1.3409	1.7112	1.8563	1.0103	1.0685	1.3242	1.0824	1.3021	1.384	1.3501	1.4861	1.414		
		0.3264	1.663	1.4316	1.3585	0.7358	1.0365	1.029	0.9443	0.6853	1.8152	1.6571	1.4401		
		1.3827	1.7517	1.6136	1.5878	1.7833	0.6031	0.5301	1.6992	1.5878	0.5045	1.7125	1.6517		
		1.7071	1.1177	1.353	1.5414	1.3274	1.4966	1.666	1.7565	1.5215	1.2953	1.773	1.4126		
		2.1508	1.9321	1.5674	0.8692	1.6137	1.3138	1.151	1.7324	1.663	0.6572	1.5454	1.6938		
		
1:40	24.40	1.6332	1.5248	1.5408	1.6445	1.7816	1.578	1.4788	1.6684	0.8221	1.3677	1.8706	1.8155		
		1.2362	1.7895	1.3397	1.3057	1.7413	1.5642	1.4485	0.7641	1.3474	1.3653	0.9975	1.7768		
		1.5701	1.6336	0.6648	1.6854	1.7544	0.495	0.4516	1.7614	1.5318	1.5861	1.4426	1.3012		
		1.4205	1.7465	1.9077	1.3011	0.7985	1.5101	1.3991	1.1321	1.5528	1.3976	1.5988	1.4787		
		0.8058	1.6539	1.4943	1.4292	1.1533	1.4819	1.2669	0.8011	0.6505	1.8608	1.6806	1.45		
		1.4135	1.7022	1.7502	1.5847	1.8554	0.7283	0.5496	1.7563	1.6149	0.4139	1.7631	1.6844		
		1.8137	1.3672	1.4035	1.5624	1.215	1.5248	1.7678	1.7947	1.6137	1.3822	1.7858	1.4092		
		2.1464	1.9565	1.5911	1.0484	1.6069	1.4007	1.2863	1.7696	1.7486	0.7742	1.6027	1.8094		
		
2:00	24.50	1.7183	1.5584	1.6011	1.6278	1.6489	1.5631	1.4945	1.6661	0.9076	1.4181	1.8694	1.9187		
		1.3057	1.7604	1.348	1.3557	1.6607	1.7327	1.4859	1.0191	1.2223	1.407	1.1379	1.7402		
		1.5382	1.6751	0.9706	1.6465	1.7125	0.6756	0.5476	1.7696	1.5636	1.5376	1.468	1.4173		
		1.3624	1.726	1.8669	1.1679	1.3516	1.3871	1.1903	1.3413	1.6079	1.5187	1.4931	1.5045		
		1.3545	1.6036	1.4694	2.1283	1.0335	1.0597	1.3774	0.9817	0.7613	1.8818	1.706	1.5162		
		1.4638	1.723	1.5447	1.6477	1.8243	0.5555	0.9358	1.6823	1.5907	1.0379	1.7245	1.6628		
		1.7516	1.2	1.4238	1.626	0.7762	1.5467	1.7181	1.7519	1.5836	1.4345	1.7818	1.4571		
		2.0666	1.9668	1.566	0.8566	1.5274	1.3603	1.1634	1.7271	1.6626	0.6899	1.6305	1.7288		
		
2:20	24.50	1.6652	1.4938	1.6077	1.5976	1.69	1.6292	1.472	1.6863	0.871	1.4423	1.9119	1.6416		
		1.2508	1.7718	1.3468	1.2897	1.6972	1.6737	1.5122	0.8223	1.3334	1.3531	1.1651	1.8005		
		1.5555	1.6344	0.6621	1.6511	1.7223	0.6549	0.4157	1.7721	1.5444	1.6392	1.401	1.3518		
		1.2549	1.7148	1.8713	1.4121	1.1203	1.4774	1.1746	1.2415	1.5092	1.5024	1.5306	1.5012		
		0.8468	1.5872	1.4331	1.7124	0.8926	1.1997	1.2452	0.7235	0.7048	1.863	1.6557	1.4741		
		1.4535	1.752	1.627	1.6717	1.8369	0.5874	0.5169	1.704	1.6037	0.6243	1.7419	1.675		
		1.724	1.1521	1.3652	1.5946	1.3244	1.6201	1.756	1.7481	1.5643	1.3919	1.8342	1.3966		
		2.0761	1.9531	1.5379	0.9106	1.6042	1.3476	1.1677	1.7618	1.6856	0.6857	1.6246	1.7105		
		
2:40	24.60	1.7932	1.7661	1.5754	1.6771	1.8414	1.7204	1.549	1.6951	1.1301	1.6377	1.9681	1.933		
		1.3225	1.7895	1.3819	1.307	1.7597	1.6103	1.4637	0.6728	1.3712	1.3377	1.2131	1.9203		
		1.6245	1.7768	1.1731	1.7099	1.7014	1.2977	0.6411	1.8431	1.6469	1.7566	1.5542	1.4244		
		1.6108	1.7804	1.9367	1.5084	1.1785	1.6309	1.4766	1.3027	1.752	1.5737	1.6435	1.6055		
		1.2233	1.6196	1.5505	1.7601	1.2604	1.4702	1.4597	0.8277	0.5594	1.9634	1.6253	1.4857		
		1.5438	1.7958	1.7994	1.6982	1.903	0.8625	0.6926	1.8008	1.6336	0.8773	1.7285	1.7078		
		1.7532	1.3143	1.4876	1.5802	1.2252	1.61	1.7635	1.8489	1.6162	1.4671	1.8554	1.3494		
		2.08	2.0285	1.5226	1.2341	1.6366	1.4156	1.2548	1.7116	1.7665	0.8633	1.6387	1.8594		
		
~End
