##BLOCKS= 1          
Plate:	Plate#1	1.3	PlateFormat	Well Scan	Absorbance	Raw	FALSE	9	Fill	3				1	600	1	12	96	1	8	None	
	Temperature(¡C)	1	2	3	4	5	6	7	8	9	10	11	12		
0:00	23.60	1.72	1.6396	1.3638	1.3918	1.0462	1.2141	1.2985	1.1586	1.116	1.1147	1.3891	1.5793		
		1.207	1.7331	1.6527	1.576	1.6407	1.3216	1.4369	1.8335	1.6802	1.7	1.9468	1.6918		
		1.2834	1.1684	1.4465	1.4384	1.5312	1.4707	1.6428	1.7359	1.395	1.3153	1.7408	1.5632		
		2.3341	1.9819	1.7106	1.3105	1.532	1.1616	1.3369	1.7232	1.6261	0.9136	1.4884	1.8026		
		1.7072	1.4096	1.2583	1.6835	1.5992	1.3181	1.5679	1.7471	1.8028	1.6452	1.5828	1.4722		
		1.6711	1.7241	1.4347	1.5926	1.8089	1.5703	1.573	1.7686	1.907	1.1362	1.2233	1.333		
		1.6632	1.6	1.1374	0.7156	1.9858	2.1383	1.2508	1.4887	1.7196	1.52	1.9194	1.3141		
		1.4468	1.6282	1.5243	1.5422	1.4286	1.8644	1.5048	1.1239	1.4973	1.5845	1.2973	1.3014		
		
0:20	23.70	1.6907	1.5005	1.5614	1.2366	0.5718	1.2711	1.1853	0.5936	0.9171	0.848	1.2894	1.6098		
		0.9948	1.6719	1.4663	1.4062	1.5774	1.1839	0.8784	1.7948	1.5167	1.7318	1.8914	1.6723		
		1.4958	0.9886	1.4452	1.3947	1.5019	1.4454	1.6315	1.689	1.3125	1.1826	1.6924	1.5804		
		2.2464	2.0325	0.7374	1.2473	1.449	1.2418	1.4361	1.6716	1.541	0.6716	1.3972	1.7801		
		1.6996	1.2584	0.7488	1.7188	1.5899	0.904	1.6556	1.6966	1.8148	1.6692	1.531	1.3005		
		1.6218	1.6538	1.3504	1.5469	1.8072	1.4018	1.4595	1.7067	1.8826	0.9733	1.1614	1.3031		
		1.654	1.5274	0.9065	0.6793	2.0184	2.1085	0.89	1.3905	1.6818	1.5285	1.8785	1.3218		
		1.4608	1.6328	1.4926	1.5509	1.3926	1.8829	1.5118	0.9665	1.4937	1.6169	1.23	1.3142		
		
0:40	23.70	1.66	1.5361	1.5525	1.1467	0.5278	1.3754	1.2902	0.7016	0.8222	0.9153	1.3524	1.6394		
		1.2628	2.0854	1.566	1.4502	1.5953	1.2876	0.7856	1.9584	1.5897	1.79	1.9793	1.6854		
		1.5194	1.1943	1.4449	1.5122	1.562	1.4955	1.6483	1.7383	1.305	1.271	1.8	1.6163		
		2.2324	2.1194	0.5584	0.9103	1.5912	1.2829	1.6319	1.6272	1.5914	0.756	1.4491	1.8798		
		1.7423	1.4775	0.874	1.738	1.7239	1.452	1.7767	1.7367	1.7678	1.7373	1.5932	1.3175		
		1.6852	1.725	1.2738	1.7281	1.9151	1.5888	1.5136	1.6984	1.817	1.1902	1.2676	1.3764		
		1.7009	1.7375	1.072	1.0971	2.0076	2.1752	1.0365	1.4625	1.7971	1.5319	1.9563	1.3839		
		1.6063	1.7343	1.4353	1.6189	1.549	1.8898	1.571	1.2022	1.569	1.7685	1.3019	1.3473		
		
1:00	23.80	1.7215	1.5764	1.3041	1.2748	0.9368	1.1608	1.1763	0.9547	1.1346	1.0403	1.3056	1.4468		
		1.3892	1.6852	1.3874	1.5392	1.6607	1.3131	0.6488	1.685	1.5202	1.6283	1.7631	1.6136		
		1.2736	1.1265	1.3608	1.3541	1.3641	1.3476	1.6457	1.7184	1.3417	1.2489	1.6603	1.5321		
		2.2521	1.9608	1.218	1.1265	1.5033	1.1785	1.3149	1.7646	1.48	0.6561	1.4309	1.7782		
		1.67	1.565	0.8203	1.6909	1.5783	0.8324	1.2722	1.701	1.6195	1.6673	1.595	1.4474		
		1.6698	1.8163	1.4129	1.5838	1.7604	1.6228	1.4595	1.6654	1.7755	0.8876	0.8592	1.1832		
		1.6167	1.4273	1.1436	0.5605	1.9828	2.0766	0.8533	1.4882	1.5914	1.5334	1.8092	1.185		
		1.0609	1.5369	1.4383	1.4892	1.086	1.8444	1.4287	1.0171	1.2267	1.4409	1.1272	1.1026		
		
1:20	23.80	1.627	1.4369	1.4705	1.0512	0.7657	1.0856	1.0364	0.5589	1.0582	0.555	0.8154	1.3776		
		1.3118	1.573	1.2878	0.9001	1.5605	1.1138	0.3201	1.6808	1.2215	1.5954	1.6873	1.5487		
		1.2845	0.9516	1.3457	1.2573	1.3968	1.3789	1.5851	1.6332	1.085	1.2028	1.6579	1.4952		
		2.1969	2.0084	0.5134	1.036	1.3566	1.3782	1.3613	1.684	1.4455	0.7995	1.313	1.7088		
		1.6619	1.1984	0.5936	1.6745	1.6346	0.6486	1.6882	1.6939	1.5201	1.6201	1.5447	1.3188		
		1.5974	1.7159	1.2613	1.4472	1.714	1.6417	1.3316	1.7072	1.7673	0.7049	1.002	1.1334		
		1.6263	1.4608	0.9863	0.8234	1.9723	2.0787	0.3802	1.5242	1.4333	1.4641	1.7845	1.127		
		0.9827	1.5287	1.4315	1.4683	1.1455	1.8117	1.3925	0.8578	1.21	1.5039	1.0318	0.9677		
		
1:40	23.90	1.5845	1.5517	1.4125	1.2442	0.4679	1.1453	1.1877	0.7621	1.0133	0.6954	0.8728	1.6029		
		1.2399	1.9952	1.3554	1.2784	1.5004	1.1624	0.2445	1.8158	1.342	1.6623	1.8328	1.6545		
		1.1611	1.1962	1.4736	1.482	1.5808	1.4009	1.6415	1.7408	1.1939	1.3747	1.7968	1.5566		
		2.1257	2.0836	0.3003	0.7708	1.4897	1.3464	1.5249	1.6616	1.5445	0.8912	1.3826	1.7641		
		1.7437	1.3927	0.6296	1.6834	1.6545	1.4469	1.7944	1.7236	1.8339	1.7403	1.5918	1.3		
		1.6749	1.7241	1.2078	1.5485	1.7685	1.6842	1.3724	1.7243	1.7708	0.8389	1.222	1.3148		
		1.7141	1.6819	0.9195	1.1118	1.9929	2.1854	0.612	1.4268	1.7339	1.5275	1.9046	1.2705		
		1.5737	1.6662	1.4179	1.5592	1.4714	1.8674	1.5092	1.0043	1.4284	1.5888	1.2009	1.0696		
		
2:00	23.90	1.7504	1.5943	1.2841	1.5856	1.1032	1.1578	1.1625	1.0754	1.0979	0.9484	1.516	1.4721		
		1.3918	1.9686	1.4408	1.5907	1.7789	1.3665	0.9651	1.805	1.6015	1.5732	1.7111	1.5726		
		1.4524	1.3094	1.5483	1.4011	1.6861	1.4479	1.668	1.7168	1.3437	1.4346	1.6703	1.596		
		2.1962	1.9806	1.5584	1.2803	1.521	1.2516	1.2836	1.7976	1.5366	0.9829	1.4884	1.8114		
		1.7229	1.6675	1.1697	1.7048	1.6036	1.2574	1.7523	1.742	1.3514	1.6464	1.6384	1.3686		
		1.7241	1.9438	1.4585	1.4797	1.6548	1.6559	1.5068	1.736	1.8454	1.0423	0.884	1.242		
		1.712	1.6888	1.0478	0.6463	2.024	2.1126	0.91	1.4727	1.6373	1.5459	1.8542	1.1905		
		1.4671	1.5589	1.4823	1.5049	1.3451	1.7913	1.4409	1.0571	1.3371	1.3826	1.0505	0.9563		
		
2:20	24.00	1.615	1.5297	1.3034	1.4193	0.8122	0.9298	0.9499	0.8697	1.081	0.6097	1.3842	1.4012		
		1.4468	1.9253	1.368	1.4533	1.6592	1.2193	0.3524	1.7714	1.3026	1.4708	1.6783	1.5431		
		1.0981	1.2499	1.497	1.3633	1.6309	1.3757	1.6248	1.6784	1.062	1.3345	1.69	1.5196		
		2.1416	2.0328	0.7994	1.2399	1.3935	1.3559	1.4371	1.7618	1.5993	1.1233	1.358	1.7158		
		1.7266	1.6673	0.6947	1.6536	1.7066	0.9576	1.7891	1.7082	1.3126	1.6461	1.5923	1.3467		
		1.6693	1.909	1.3287	1.4011	1.6688	1.5869	1.4312	1.7352	1.8353	0.7718	1.1314	1.2044		
		1.7273	1.6824	0.9541	0.5091	1.9819	2.1005	0.4159	1.3996	1.5058	1.5314	1.8393	1.1564		
		1.4691	1.4988	1.4152	1.5059	1.383	1.7868	1.4089	0.9653	1.2945	1.3479	0.939	0.8724		
		
2:40	24.00	1.4603	1.5859	1.2645	1.5035	0.8006	1.0954	1.0633	1.0678	1.0685	0.8451	1.4824	1.5444		
		1.5145	1.8829	1.417	1.5555	1.616	1.2847	0.4887	1.8824	1.4024	1.5684	1.8064	1.6907		
		0.9208	1.5249	1.5968	1.4974	1.6842	1.3975	1.6414	1.7084	1.0902	1.3731	1.8076	1.5015		
		2.0342	2.0639	0.4601	1.1477	1.5345	1.2884	1.6786	1.6953	1.7646	1.2068	1.4566	1.7519		
		1.7799	1.6917	0.7316	1.6674	1.7223	1.6576	1.7931	1.7976	1.7674	1.6167	1.6981	1.2773		
		1.6786	1.9151	1.1694	1.3753	1.6824	1.6701	1.4133	1.7101	1.8995	0.9611	1.4211	1.3773		
		1.7499	1.6084	0.821	0.903	1.9987	2.1558	0.7903	1.5103	1.7607	1.5245	1.937	1.2803		
		1.541	1.6006	1.3809	1.57	1.5319	1.8404	1.4904	1.0577	1.4709	1.5018	1.1157	1.0103		
		
~End
