##BLOCKS= 1          
Plate:	Plate#1	1.3	PlateFormat	Well Scan	Absorbance	Raw	FALSE	9	Fill	3				1	600	1	12	96	1	8	None	
	Temperature(¡C)	1	2	3	4	5	6	7	8	9	10	11	12		
0:00	26.00	1.43	1.2297	1.2528	1.4908	1.103	0.8983	1.2395	0.9058	1.0286	1.286	1.4148	1.0494		
		0.856	1.5244	1.4012	1.5455	1.5618	1.7989	1.2649	1.7992	1.7031	1.6415	1.9208	1.4145		
		0.8102	1.5458	1.2829	1.335	1.0673	1.136	1.604	1.3207	1.4092	1.2792	1.6689	1.4511		
		1.9158	1.9205	1.6145	1.0703	1.6421	1.4377	1.6517	1.4964	1.2928	1.0841	1.3449	1.2673		
		1.6561	1.1942	1.2466	1.4699	1.5431	1.7123	1.3813	1.5361	1.6732	1.5479	1.4241	1.4977		
		1.6151	1.6736	1.2718	1.5106	1.3778	1.21	1.6156	1.4344	1.3667	1.5704	1.2872	1.2624		
		1.3201	0.585	1.3199	0.81	1.9649	1.9871	1.6785	1.5403	1.7788	1.2935	1.6997	1.5432		
		1.6636	1.4539	1.1168	1.1905	1.4355	1.2903	1.4934	1.1255	1.5498	1.4526	1.1209	1.3525		
		
0:20	26.10	1.1783	1.0292	1.2029	0.9312	0.7766	1.0003	1.0471	0.7049	0.8291	1.0178	1.3657	0.8728		
		0.8671	1.1455	1.3366	1.4048	1.4221	0.8037	0.4708	1.7432	1.5132	1.5562	1.8995	1.2188		
		1.1695	1.5479	1.213	1.0393	0.578	1.0639	1.4296	1.2625	1.3594	1.197	1.6185	1.4709		
		1.9426	1.7124	0.8684	1.1237	1.206	1.2678	1.3221	1.4473	1.1682	1.018	1.1549	1.2071		
		1.5726	1.1188	1.174	1.4407	1.6534	1.8224	1.4601	1.5788	1.5279	1.6189	1.3316	1.3534		
		1.3772	1.6955	1.0878	1.5225	1.3954	1.2646	1.3857	1.4764	1.1128	1.313	1.1711	1.3365		
		1.1374	0.6849	0.9784	0.8601	1.9467	1.9289	0.8552	1.561	1.828	0.8582	1.6941	1.4718		
		1.3579	1.4305	0.8163	1.2594	1.2271	1.3839	1.4246	1.0083	1.5109	1.5321	1.1174	1.3618		
		
0:40	26.20	1.2548	0.9305	1.2182	1.1057	0.8724	1.2577	1.2451	0.9269	0.8528	0.8823	1.3746	1.154		
		0.6872	1.5654	1.2937	1.6521	1.338	0.7924	0.3048	1.9288	1.6092	1.7371	1.8763	1.3189		
		1.4038	1.5295	1.2668	1.4155	0.5273	1.4978	1.2409	1.5494	1.417	1.1783	1.6151	1.555		
		2.0038	1.8474	0.6325	0.9808	1.3781	1.3555	1.4523	1.3301	1.4128	1.1307	1.2544	1.0287		
		1.643	1.2339	1.0303	1.3806	1.4929	1.3339	1.6121	1.6788	1.675	1.6878	1.3647	1.2513		
		1.3766	1.6758	1.2044	1.4953	1.4309	1.1962	1.6034	1.4309	1.168	1.1105	1.2419	1.2665		
		1.279	0.996	1.015	1.0276	2.022	2.0123	1.604	1.6737	1.8529	0.9641	1.8816	1.171		
		1.5991	1.6397	0.9905	1.3099	1.6211	1.3245	1.525	1.2512	1.5354	1.7166	1.1817	1.4388		
		
1:00	26.20	1.3408	1.1144	0.988	1.304	0.9164	1.0923	0.9995	0.8192	1.0293	1.1654	1.4557	0.89		
		0.8482	1.3346	1.1147	1.47	1.6691	1.6623	0.6221	1.5769	1.5614	1.6946	1.5756	1.2326		
		1.1052	1.6603	1.1914	1.3946	0.4074	0.9102	1.4053	1.3006	1.2549	1.096	1.6105	1.3919		
		1.7684	1.9489	1.2842	0.9922	1.5126	1.3064	1.0001	1.5871	1.1652	1.0178	1.3306	1.0897		
		1.5752	1.4466	0.9775	1.4091	1.3983	1.5483	1.2041	1.6031	1.4651	1.553	1.3808	1.4509		
		1.6614	1.6738	1.0547	1.3349	1.3086	1.3173	1.4712	1.3705	1.0854	0.9502	0.9133	1.1112		
		1.1492	0.552	1.1962	0.6455	1.8677	1.9396	1.421	1.4694	1.6977	1.1228	1.6142	1.2901		
		1.1746	1.2792	0.9944	1.004	1.2465	1.1363	1.4752	1.0549	1.3719	1.2341	1.0393	1.11		
		
1:20	26.30	0.9284	0.899	0.9467	0.9923	0.6879	1.0968	0.7437	0.5244	0.9545	0.8078	1.1251	0.763		
		0.6505	0.9788	0.9107	1.1406	1.401	0.804	0.2085	1.5986	1.2663	1.6344	1.4327	1.0459		
		1.2942	1.3266	1.0846	1.2929	0.4411	0.9152	1.3745	1.2289	0.8936	1.1624	1.4874	1.3745		
		1.8408	1.7867	0.7778	0.8711	1.0746	1.4237	1.0177	1.5054	0.9894	1.1294	1.1314	0.8326		
		1.4185	1.0107	0.6658	1.4958	1.4899	1.8345	1.4194	1.6176	1.4171	1.581	1.2681	1.2534		
		1.3716	1.6193	0.8263	1.3124	1.222	1.4378	1.2704	1.4405	1.1518	1.1831	0.7802	1.0923		
		1.1247	0.5987	1.0165	0.9326	1.9019	1.878	0.8821	1.4458	1.7029	0.6878	1.601	1.1686		
		1.07	1.134	0.8124	0.9953	1.0843	1.2897	1.3619	0.9059	1.3888	1.2272	0.996	1.1435		
		
1:40	26.30	1.2315	1.1339	0.9428	1.3578	0.6207	1.2422	1.2337	0.7318	0.9268	0.6745	1.2509	1.0376		
		0.4987	1.3267	0.9552	1.6746	1.2479	0.7387	0.1808	1.7229	1.3214	1.7288	1.8285	1.1443		
		0.9961	1.3643	1.1642	1.4385	0.4501	1.1767	1.1531	1.2936	1.1797	1.0271	1.6231	1.6016		
		2.0411	1.7822	0.4766	0.8829	1.1113	1.3929	0.7543	1.4085	1.1476	1.2596	1.2265	0.8646		
		1.5083	1.0386	0.6988	1.2983	1.6017	1.2737	1.6304	1.5504	1.5003	1.669	1.3242	1.2944		
		1.3864	1.6488	1.3672	1.1822	1.2371	1.4568	1.3543	1.3045	0.9429	1.2261	1.0427	1.273		
		1.2267	0.6871	0.9111	0.7712	2.0545	1.935	0.8716	1.6713	1.8075	0.9302	1.7792	1.1345		
		1.6074	1.2903	0.8318	0.8675	1.2513	1.4301	1.4575	1.0697	1.5268	1.4385	1.0577	1.3337		
		
2:00	26.40	1.225	1.1952	1.1162	1.6492	1.1451	1.1085	1.1206	1.1015	0.9942	0.9971	1.4397	0.9365		
		1.1075	1.5947	1.1681	1.5964	1.6226	1.5058	1.3252	1.7053	1.6257	1.7554	1.7462	1.1214		
		1.4705	1.4598	1.4538	1.5271	0.8542	1.2211	1.5104	1.4416	1.0928	1.3948	1.6561	1.4291		
		1.8579	2.0975	1.7511	1.2689	1.4623	1.4237	1.1997	1.5851	1.3771	1.2833	1.3257	1.2693		
		1.7046	1.4621	1.1982	1.4954	1.3902	1.4841	1.4038	1.7124	1.5822	1.6584	1.4056	1.399		
		1.6819	1.7504	1.1101	1.3247	1.5015	1.3413	1.4391	1.4325	1.0002	1.281	0.8607	1.1581		
		1.3454	0.9487	0.9864	0.8178	1.8925	1.9335	1.1869	1.5368	1.7909	1.0485	1.6438	1.4061		
		1.57	1.2455	1.1822	1.1477	1.5379	1.2069	1.4874	1.11	1.398	1.2055	1.2415	1.0319		
		
2:20	26.40	1.1551	0.9839	0.9288	1.3798	0.782	0.8987	0.7362	0.7042	1.0379	0.8313	1.4101	0.9611		
		0.8351	1.4026	1.0058	1.5013	1.4898	0.5093	0.424	1.6722	1.4287	1.3497	1.6011	1.0484		
		0.9082	1.5514	1.1558	1.4722	0.4391	1.1233	1.3278	1.3491	0.9633	1.1229	1.6059	1.4052		
		1.9683	1.9939	0.85	1.2105	1.1725	1.3621	0.9554	1.5397	1.199	1.3484	1.2412	0.927		
		1.5192	1.4632	0.6343	1.3442	1.4009	1.2343	1.4692	1.59	1.1737	1.6025	1.2614	1.3652		
		1.4779	1.9052	1.0725	1.0646	1.2048	1.305	1.4922	1.5047	1.0226	0.8786	0.9658	1.2757		
		1.1606	0.9436	0.9706	0.7309	1.8937	1.9006	1.2772	1.3477	1.7853	0.7573	1.6718	1.3287		
		1.4785	1.0255	0.7498	0.9494	1.2659	1.2351	1.4366	1.0409	1.3531	1.1715	1.0223	1.3426		
		
2:40	26.50	1.1944	1.3163	1.3643	1.6327	0.9347	1.1678	0.8988	0.8271	0.9453	0.7547	1.4373	1.0876		
		0.927	1.5654	1.0973	1.5811	1.5331	0.8453	0.613	1.785	1.4765	1.4318	1.7385	1.1642		
		0.7718	1.5839	1.4084	1.3867	0.6923	1.0633	1.2019	1.3086	1.2699	1.1368	1.7033	1.6009		
		2.0971	1.985	0.5245	1.1563	1.2801	1.2531	0.935	1.3743	1.3017	1.4199	1.2833	1.0179		
		1.5163	1.6535	0.8511	1.3106	1.5262	1.4962	1.5769	1.778	1.7169	1.5503	1.3274	1.1966		
		1.6355	1.979	1.5051	1.0332	1.3051	1.4955	1.4349	1.379	0.924	1.1738	1.3652	1.3717		
		1.436	1.2145	0.8358	0.8403	2.0503	1.9981	1.7746	1.47	1.8324	0.9298	1.7558	1.1494		
		1.4709	1.2078	0.7532	1.0079	1.3131	1.3543	1.5136	1.1223	1.4604	1.3991	1.0615	1.3366		
		
~End
