##BLOCKS= 1          
Plate:	Plate#1	1.3	PlateFormat	Well Scan	Absorbance	Raw	FALSE	9	Fill	3				1	600	1	12	96	1	8	None	
	Temperature(¡C)	1	2	3	4	5	6	7	8	9	10	11	12		
0:00	23.70	0.8073	0.8834	0.6	0.7823	0.6347	0.5084	0.8919	0.5107	0.4491	0.5968	1.0869	1.0273		
		0.5425	0.5531	0.8571	1.0943	0.5523	0.5315	0.485	0.4977	0.8344	0.514	0.7883	0.5599		
		0.6415	1.1461	1.0623	1.1367	0.7275	0.401	0.5389	0.5023	0.9321	0.5901	0.9185	0.6483		
		1.0263	1.0229	0.6991	1.0626	1.0467	1.178	1.1941	1.0108	1.0591	0.7168	0.5331	0.5457		
		0.9949	1.4145	1.1253	0.6426	1.0457	1.1535	0.9555	0.9602	1.343	1.1251	0.6585	0.7513		
		1.1931	1.0756	1.023	1.1468	1.1166	0.6568	1.0471	1.0638	1.2378	1.1082	1.5465	1.34		
		0.8793	1.0686	0.8999	1.5535	1.1516	0.4805	0.877	1.2468	0.9678	1.2006	0.97	1.0732		
		1.0356	0.8886	0.8129	1.1506	0.9631	1.302	1.205	1.0919	1.4693	1.0532	0.9537	1.2258		
		
0:20	23.70	0.6913	0.7685	0.4817	0.7542	0.4821	0.2816	0.5973	0.6425	0.5556	0.7734	0.8296	1.12		
		0.8293	0.647	0.8799	0.9123	0.6854	0.3132	0.2731	0.3366	0.7528	0.5662	0.4845	0.6048		
		0.8897	1.0872	1.1024	1.3237	1.3116	0.4568	0.7853	0.8209	0.7101	0.5125	0.8575	0.4914		
		0.8323	1.1786	0.6206	1.6129	0.7218	1.0907	1.2817	0.9799	0.7593	0.41	0.772	0.6188		
		0.7852	1.4242	0.8368	0.8595	0.8795	1.2396	0.9818	1.062	1.1819	0.876	0.4555	0.6561		
		0.8793	1.2929	1.2005	1.2862	1.184	0.9877	0.6683	1.3003	1.324	0.9221	1.5417	1.4252		
		0.798	0.9917	0.8013	1.5012	0.9404	0.3633	0.9027	1.3311	0.9432	1.0324	1.0712	1.0201		
		0.988	1.0787	1.0397	1.1019	1.1146	1.3498	0.931	0.995	1.591	1.3213	1.179	1.2346		
		
0:40	23.80	0.7828	0.7945	0.6317	1.1288	0.7959	0.4233	0.6433	1.0167	0.9819	0.7238	0.8834	1.3214		
		1.1188	1.1005	0.9892	1.2954	1.1868	0.7984	0.3341	0.5531	0.8782	0.5734	0.5536	0.9852		
		1.2478	1.1645	1.253	1.5315	1.2962	0.8532	0.8338	0.8993	0.7052	0.4243	1.119	0.5198		
		1.1883	1.2647	0.8866	1.6714	1.2304	1.2332	1.2486	1.1238	0.8198	0.5269	0.9423	0.7549		
		1.3203	1.387	1.2745	1.0487	1.2957	1.228	1.1831	0.9345	1.2408	1.1273	0.6674	0.8446		
		1.4516	1.2712	1.3257	1.4775	1.4934	1.3875	1.0909	1.3174	1.5433	0.9058	1.6613	1.5153		
		1.3535	1.1694	1.1544	1.5171	1.1877	0.7921	0.9409	1.3561	1.1181	1.0638	1.1794	1.1658		
		1.3383	1.3973	1.1789	1.2321	1.0866	1.4597	0.8191	1.3197	1.6377	1.4315	1.1248	1.347		
		
1:00	23.80	0.8096	1.0141	0.5745	0.9603	0.7622	0.6634	0.773	0.5636	0.3271	0.499	1.0245	1.1466		
		0.5623	0.596	0.4901	0.9559	0.2539	0.4039	0.356	0.3469	0.6009	0.4161	0.6832	0.4236		
		0.6524	0.9801	0.8506	1.1692	1.0448	0.2709	0.3406	0.4465	0.8425	0.4769	0.7716	0.4927		
		1.2173	1.1483	0.4422	1.0051	0.9994	1.0318	1.091	1.3043	0.6925	0.5863	0.4799	0.4814		
		0.941	1.3858	0.855	0.8494	0.812	0.8646	0.9403	0.7571	0.9865	0.8371	0.4584	0.5844		
		0.8835	1.1386	0.7712	1.2701	1.137	0.5445	0.4559	1.3134	1.2145	0.8924	1.4104	1.3207		
		0.7159	0.8946	0.7966	1.2268	0.9325	0.3416	0.7466	1.2321	0.6746	0.8771	1.0367	0.9081		
		1.0353	0.9407	0.5285	0.6995	0.8473	1.1061	0.7803	0.811	1.3858	0.8993	0.7751	1.0715		
		
1:20	23.90	0.8049	0.8402	0.652	0.9472	0.5867	0.2847	0.6069	0.8105	0.4492	0.6275	1.0309	1.1572		
		0.8429	0.8083	0.6712	0.9838	0.4722	0.2442	0.2509	0.269	0.5713	0.5116	0.3035	0.5622		
		0.8375	0.9136	1.1658	1.2282	1.1459	0.2865	0.6507	0.6243	0.6904	0.434	0.8151	0.3653		
		1.243	0.9152	0.4343	1.096	0.6805	1.1338	1.2442	1.3826	0.7901	0.3431	0.6497	0.5941		
		0.6989	1.3437	0.8515	0.6823	0.7403	0.7598	0.8294	0.8196	0.8152	0.574	0.3899	0.5606		
		0.6657	1.152	0.8495	1.3813	1.1817	0.7862	0.7476	1.0609	1.2868	0.6816	1.4855	1.4136		
		0.7029	0.9777	0.6714	1.4354	0.9398	0.4827	0.7601	1.3116	0.8351	0.994	1.1071	0.9231		
		1.142	1.1999	0.7162	0.7346	0.531	1.0703	0.8315	0.7839	1.4869	1.0797	0.9177	0.8702		
		
1:40	23.90	0.9828	0.9504	0.7013	1.0162	0.7222	0.6807	0.6493	1.0233	0.6502	0.6517	0.8866	1.2902		
		1.0667	1.0916	1.0496	1.1283	0.9477	0.3697	0.2998	0.4149	0.7264	0.7061	0.5931	0.9549		
		1.171	1.097	1.3897	1.4317	1.2455	0.973	0.5498	0.4767	0.6305	0.5617	0.9006	0.5168		
		1.2454	1.4025	0.839	1.5978	0.9061	1.3667	1.2199	1.1419	0.6852	0.4698	0.9551	0.7404		
		1.1583	1.3324	0.5638	0.7165	1.174	1.1196	0.9279	0.7218	1.0804	0.9077	0.4338	0.7366		
		1.1566	1.0502	1.2175	1.3127	1.3058	0.9734	0.7944	1.2233	1.3913	0.9038	1.606	1.4855		
		1.3109	1.102	0.9403	1.4963	0.8276	0.6368	0.896	1.3533	1.0736	1.0426	1.048	1.0364		
		1.2642	1.1469	0.6505	0.891	0.4822	1.2952	0.4661	0.8587	1.4514	1.1123	0.964	1.1524		
		
2:00	24.00	1.1213	1.1483	0.9074	1.2585	1.0983	1.0775	1.0046	0.809	0.5054	1.1113	1.2749	1.5171		
		0.9438	0.9503	0.6948	1.3258	0.4059	0.7377	0.724	0.6716	0.7893	0.6978	0.6126	0.6606		
		0.8979	1.1641	0.8001	1.3718	1.1401	0.3552	0.338	0.7101	1.1608	0.6854	0.8329	0.6712		
		1.263	1.326	0.6185	1.1877	1.171	1.1978	1.1978	1.2286	0.9475	0.9212	0.627	0.8252		
		1.018	1.2824	1.0892	1.3958	0.9565	0.7989	1.1883	0.6753	0.9693	1.0025	0.7546	0.8961		
		1.1773	1.0306	1.1143	1.0638	1.1683	0.6832	0.3385	1.1648	1.2326	1.085	1.4547	1.4101		
		0.957	1.3128	0.9551	1.5028	1.0384	0.7029	0.9571	1.2324	0.9352	1.0429	1.137	0.9603		
		1.2097	1.2454	0.4787	0.6451	0.6876	1.0913	0.9026	0.9317	1.3518	1.0065	0.8419	0.9977		
		
2:20	24.10	1.1005	1.0765	1.0318	1.1697	0.73	0.486	0.8574	1.058	0.7041	0.8495	1.2243	1.3492		
		0.9998	1.1977	0.8231	1.3717	0.501	0.5409	0.4304	0.4949	0.68	0.6456	0.6673	0.8698		
		0.9463	1.0958	0.9452	1.2953	1.1836	0.5552	0.3842	0.612	0.9083	0.6531	0.8517	0.615		
		0.9973	1.2166	0.5534	1.3196	0.8022	1.432	1.1849	1.2176	0.9729	0.7612	0.5967	0.5933		
		0.9854	1.0228	0.7485	0.7039	0.8433	0.7354	1.1053	0.9231	0.5586	0.814	0.5376	0.722		
		0.6967	1.2486	0.8039	1.0973	1.1336	0.9096	0.6614	0.91	1.2424	0.6792	1.5241	1.4172		
		0.9965	0.9135	0.8201	1.4131	0.8802	0.9114	0.8438	1.2797	0.8644	1.0968	1.2293	0.818		
		1.3958	0.9984	0.5068	0.5957	0.5505	1.0099	0.6503	0.6402	1.4347	0.9826	0.8084	0.8144		
		
2:40	24.10	1.3189	1.2133	1.1385	1.2556	1.0216	0.6359	0.8993	1.3699	0.9257	1.1007	1.2499	1.3862		
		1.2658	0.7913	1.1163	1.206	1.4275	0.8799	0.4743	0.7449	0.9547	1.0471	0.9813	1.2655		
		1.3445	1.5126	1.3825	1.621	1.377	1.448	1.1346	1.1467	0.8686	0.9981	0.9767	0.8045		
		1.3706	1.6041	0.9256	1.587	1.0819	1.5763	1.3331	1.2767	1.1138	1.0006	1.415	1.1373		
		1.2655	1.2618	0.7524	1.2199	1.2642	1.1423	1.2779	1.0439	0.9949	1.1063	0.733	0.9529		
		1.1693	1.2752	0.9852	1.3858	1.4588	0.9311	0.8088	1.268	1.5292	0.9966	1.5913	1.5434		
		1.2051	1.1373	0.9618	1.3407	1.1506	0.8743	1.1346	1.4615	1.2556	0.9014	1.3431	1.0504		
		1.3338	1.1325	0.9369	0.9561	0.6778	1.2709	0.7801	0.9178	1.505	1.1639	0.8662	1.1053		
		
~End
