##BLOCKS= 1          
Plate:	Plate#1	1.3	PlateFormat	Well Scan	Absorbance	Raw	FALSE	9	Fill	3				1	600	1	12	96	1	8	None	
	Temperature(¡C)	1	2	3	4	5	6	7	8	9	10	11	12		
0:00	23.20	1.6938	1.4876	1.0474	1.5522	1.5818	1.3918	1.6166	1.7787	1.5981	1.6795	1.6288	1.5593		
		1.6126	1.7713	1.3662	1.2731	1.6323	1.6602	1.3972	1.6628	1.8454	1.1044	1.1196	1.5686		
		1.2063	1.8323	1.1903	1.1462	1.8629	1.9559	1.299	1.5649	1.6002	1.6645	1.7139	1.2179		
		1.4033	1.2158	1.5367	1.4053	1.2066	1.6902	1.4125	1.1793	1.7947	1.4949	1.3196	1.5515		
		1.7472	1.3301	1.2352	1.5236	1.6984	1.6043	1.259	1.773	1.3678	1.255	1.8666	1.9892		
		1.7278	2.042	1.4634	1.3992	1.3427	1.6297	1.4033	1.3752	1.334	1.5426	1.2621	1.7862		
		1.7622	1.7172	1.2992	1.483	1.2402	1.4477	1.31	1.8297	1.64	1.6811	1.7266	1.26		
		1.5073	1.6852	1.9577	1.4983	1.3503	1.3942	1.3752	1.3487	2.0297	1.358	1.6384	1.4559		
		
0:20	23.30	1.6118	1.369	0.7647	1.5794	1.6122	1.289	1.5306	1.6885	1.5297	1.5949	1.5489	1.5343		
		1.6046	1.709	1.2804	1.0775	1.617	1.6417	1.2235	1.6569	1.7749	0.6549	0.7322	1.5241		
		1.0193	1.7708	0.862	0.5375	1.8667	1.8918	0.7998	1.5299	1.516	1.6396	1.4627	0.9291		
		1.2536	0.409	1.4814	1.3034	0.9569	1.5098	1.1141	0.896	1.5897	1.44	1.3379	1.3987		
		1.5805	1.2078	0.7338	1.5044	1.7205	1.551	1.0358	1.4581	0.9971	0.8202	1.8633	1.9366		
		1.6712	1.8706	1.4085	1.2399	0.8022	1.5821	1.3231	0.514	1.1338	1.2821	1.1111	1.6576		
		1.7551	1.6136	0.6191	1.4219	0.8963	0.896	0.9917	1.7146	1.59	1.6133	1.6268	0.9018		
		1.3457	1.689	1.8492	1.26	1.1606	1.2666	1.2304	1.1714	1.9188	1.1506	1.47	1.1344		
		
0:40	23.30	1.5924	1.3266	0.7496	1.5392	1.6236	1.287	1.5285	1.6666	1.4943	1.5778	1.5651	1.5697		
		1.6208	1.6775	1.2525	1.0236	1.6449	1.5512	1.2097	1.6675	1.7135	0.6162	0.6722	1.5267		
		0.9757	1.828	0.9996	0.4482	1.8862	1.8732	0.7736	1.5431	1.5409	1.6085	1.4311	0.7794		
		1.1938	0.5506	1.4107	1.2337	0.9208	1.5865	1.1433	0.5017	1.5267	1.4128	1.3651	1.3002		
		1.5188	1.2612	0.646	1.4818	1.7336	1.5432	1.0424	1.3447	0.8024	0.7003	1.8704	1.9316		
		1.6775	1.8077	1.3821	1.2786	0.5684	1.6296	1.3517	0.5381	1.2349	1.2917	1.0255	1.5165		
		1.7927	1.635	0.4986	1.4129	0.8144	0.7496	0.7154	1.65	1.5442	1.6436	1.5014	0.9963		
		1.2736	1.5957	1.8912	1.1521	1.1225	1.181	1.1712	1.0532	1.9023	1.1338	1.4186	0.9477		
		
1:00	23.30	1.7091	1.4863	1.1236	1.5787	1.6043	1.3854	1.6087	1.749	1.5655	1.6718	1.5803	1.5589		
		1.6505	1.7698	1.3478	1.2187	1.6585	1.6345	1.355	1.6619	1.7853	1.1399	1.1549	1.5485		
		1.1416	1.7687	1.2476	1.1405	1.8528	1.965	1.1442	1.576	1.5747	1.631	1.6527	1.1559		
		1.4252	1.1768	1.4903	1.3755	1.0907	1.6921	1.1742	1.096	1.8941	1.5445	1.4632	1.6093		
		1.774	1.2403	1.1106	1.5346	1.7069	1.5705	1.1798	1.7539	1.1666	1.108	1.9161	1.9776		
		1.7312	1.9273	1.4627	1.3606	1.3764	1.6318	1.3456	0.9503	1.1671	1.5041	1.2271	1.7717		
		1.7713	1.6983	1.1419	1.5006	1.1956	1.3471	1.0579	1.7682	1.6199	1.642	1.7219	1.2031		
		1.3387	1.7468	1.9054	1.3972	1.426	1.3337	1.3223	1.2816	2.0343	1.3099	1.6216	1.3996		
		
1:20	23.40	1.6145	1.3313	0.8029	1.5525	1.6134	1.242	1.5321	1.6781	1.5031	1.5822	1.5139	1.5054		
		1.5981	1.6943	1.225	1.0136	1.578	1.5763	1.2579	1.6295	1.6907	0.8321	0.8382	1.5163		
		0.9665	1.7451	0.904	0.5529	1.867	1.8706	0.7552	1.5933	1.5333	1.5587	1.3978	0.8343		
		1.2637	0.7748	1.4124	1.2936	0.9037	1.4554	1.0562	0.7241	1.9093	1.4203	1.512	1.3369		
		1.5538	1.2341	0.6708	1.4942	1.6607	1.5474	0.9354	1.3962	0.8612	0.7444	1.8836	1.9251		
		1.6685	1.7684	1.4569	1.1149	0.6363	1.6219	1.2141	0.5201	0.9741	1.3161	1.1012	1.6494		
		1.7964	1.5916	0.4365	1.4399	0.451	0.8403	0.7307	1.6774	1.6007	1.6165	1.5062	0.7771		
		1.2479	1.7209	1.8138	0.9588	1.2258	1.1329	1.1546	1.0166	1.8599	1.0111	1.3929	0.9193		
		
1:40	23.40	1.5813	1.3155	0.8085	1.5339	1.6232	1.3064	1.5246	1.6468	1.4312	1.5709	1.5067	1.5473		
		1.6231	1.6555	1.2842	0.9712	1.5805	1.5203	1.2047	1.6385	1.4424	0.622	0.8576	1.5046		
		0.9308	1.7661	0.8812	0.4891	1.8669	1.8477	0.7589	1.5819	1.5457	1.6213	1.3587	0.7662		
		1.209	0.6356	1.359	1.2417	0.889	1.57	1.5895	0.4775	1.7947	1.4151	1.5571	1.2765		
		1.4307	1.2443	0.6025	1.504	1.6392	1.5869	0.9678	1.112	0.7869	0.7977	1.8973	1.8985		
		1.6713	1.7317	1.4396	1.1554	0.4595	1.6715	1.2542	1.2473	1.0753	1.295	1.1046	1.4575		
		1.7599	1.5988	0.3509	1.4024	0.3948	0.6628	0.5837	1.5798	1.5365	1.6195	1.3994	1.1878		
		1.2254	1.6865	1.9234	0.8584	1.1084	1.0388	1.0381	0.8699	1.7959	1.0041	1.3679	0.77		
		
2:00	23.40	1.565	1.3226	1.0892	1.2689	1.3566	1.2328	1.2904	1.5527	1.4616	1.5641	1.4745	1.4777		
		1.6255	1.7203	1.3095	1.2041	1.4648	1.5729	1.3447	1.4998	1.7005	1.2472	1.3659	1.5099		
		1.2315	1.5964	1.3869	1.0852	1.6702	1.5767	1.2702	1.5511	1.4662	1.5783	1.7047	1.279		
		1.4085	1.321	1.4098	1.2918	1.2236	1.6276	1.242	1.119	1.9602	1.5768	1.4842	1.4831		
		1.8343	1.2442	1.2398	1.4585	1.6506	1.5999	1.2275	1.6728	1.2115	1.1599	1.8547	1.8374		
		1.7565	1.6672	1.472	1.3501	1.2823	1.5088	1.3587	1.1718	1.2761	1.4399	1.3262	1.7496		
		1.7543	1.6483	1.3099	1.4818	1.2917	1.4931	1.2101	1.5602	1.669	1.6414	1.6734	1.3184		
		1.3461	1.7627	1.9612	1.3387	1.5388	1.3496	1.2978	1.3031	2.0419	1.3324	1.627	1.4269		
		
2:20	23.50	1.6678	1.4181	0.912	1.5482	1.6163	1.3812	1.6011	1.7183	1.5067	1.6219	1.5191	1.6296		
		1.662	1.8939	1.3524	1.1737	1.6449	1.6159	1.4622	1.6558	1.81	0.8269	1.125	1.5607		
		1.0741	1.7057	1.0454	0.8902	1.9456	1.8674	0.8044	1.6671	1.6258	1.6496	1.5328	0.9932		
		1.2815	1.0535	1.4917	1.3319	1.0032	1.8047	0.9189	1.1102	2.1923	1.4139	1.6533	1.4541		
		1.6786	1.2322	0.8141	1.5059	1.7152	1.6264	1.0898	1.6704	0.902	0.7968	1.8755	1.9632		
		1.7096	1.8703	1.4079	1.2961	0.7842	1.6595	1.2309	0.9889	1.1366	1.4125	1.2052	1.694		
		1.7883	1.6767	0.802	1.4867	0.5479	0.9386	0.7656	1.6027	1.5994	1.6746	1.5273	0.9541		
		1.2779	1.7601	1.8851	0.9663	1.4291	1.1969	1.1167	1.1492	1.9153	1.1193	1.4701	1.0771		
		
2:40	23.50	1.5855	1.4287	1.0326	1.569	1.6298	1.4678	1.5666	1.7341	1.5174	1.6611	1.552	1.6463		
		1.6756	1.8898	1.4516	1.082	1.6213	1.6624	1.3638	1.6667	1.667	0.8514	0.9081	1.5561		
		1.0392	1.8315	1.0274	0.686	1.8541	1.8238	0.7793	1.6934	1.572	1.6723	1.5017	0.9313		
		1.2717	0.534	1.5396	1.26	0.9846	1.8884	1.4401	0.9282	2.1145	1.4236	1.5976	1.3382		
		1.6532	1.392	0.74	1.5306	1.7345	1.6127	1.1004	1.6645	0.8064	0.6723	1.8448	1.937		
		1.7152	1.8821	1.4301	1.2939	0.5067	1.646	1.2221	0.6078	1.1312	1.4634	1.2954	1.5144		
		1.8046	1.668	0.5806	1.441	0.47	0.8313	0.594	1.561	1.5912	1.6938	1.5207	1.0773		
		1.2163	1.7213	1.9511	0.9438	1.1977	1.1379	1.1091	1.0286	1.8522	1.1557	1.4322	0.9647		
		
~End
