##BLOCKS= 1          
Plate:	Plate#1	1.3	PlateFormat	Well Scan	Absorbance	Raw	FALSE	9	Fill	3				1	600	1	12	96	1	8	None	
	Temperature(¡C)	1	2	3	4	5	6	7	8	9	10	11	12		
0:00	25.20	1.4916	1.2551	1.1332	1.4436	1.3945	1.1067	1.6123	1.7573	1.4211	1.6279	1.5876	1.5174		
		1.49	1.617	1.1373	1.1486	1.1975	1.519	1.4613	1.6382	1.5765	1.4137	1.2057	1.5539		
		1.2937	1.6183	1.1599	1.1867	1.8141	1.9491	1.3816	1.463	1.6473	1.3444	1.65	1.287		
		1.0917	1.5384	1.2966	1.28	1.1654	1.1078	1.3822	1.1729	1.6656	1.3184	1.2921	1.349		
		1.558	1.3273	1.2581	1.4187	1.4471	1.3432	1.3412	1.1891	1.3903	1.2777	1.8763	1.9925		
		1.6208	1.5862	1.3122	1.2983	1.3955	1.2999	1.4064	1.4564	1.3109	1.4183	1.2431	1.4535		
		1.5383	1.6922	1.3922	1.4363	1.2786	1.5482	1.579	1.8206	1.5797	1.4175	1.7946	1.3338		
		1.6689	1.5506	1.8331	1.5527	1.4501	1.4574	1.354	1.3472	1.9448	1.4077	1.59	1.4171		
		
0:20	25.20	1.4618	1.0701	0.9565	1.4479	1.4155	0.668	1.5671	1.6266	1.4624	1.5272	1.5711	1.5169		
		1.4072	1.449	0.979	0.8922	0.9863	1.421	1.441	1.6091	1.2154	0.7428	0.8373	1.4889		
		1.1141	1.4242	0.8961	0.4856	1.8003	1.8954	0.8828	1.4816	1.4776	1.1982	1.4373	1.0987		
		0.8816	0.9122	1.2249	1.0286	0.8274	0.7681	1.1808	0.95	1.4075	1.2126	1.1822	0.7994		
		1.3506	1.2924	0.9272	1.3373	1.4098	0.6928	1.0211	0.6505	1.0723	0.7973	1.8582	1.9259		
		1.4873	1.1851	1.0904	1.0856	1.0334	1.3632	1.0146	0.7157	1.0086	1.1047	1.0139	1.1063		
		1.4634	1.5822	0.901	1.3543	1.013	0.9546	1.1221	1.6611	1.5651	1.2414	1.6431	0.9837		
		1.5164	1.5053	1.7596	1.1199	1.2246	1.4787	1.2825	1.2068	1.6635	1.348	1.3141	1.2102		
		
0:40	25.30	1.3362	0.9663	1.062	1.4334	1.3559	0.4667	1.5325	1.6255	1.4561	1.5153	1.5597	1.4867		
		1.5607	1.4951	1.1257	0.9372	0.9857	1.2916	1.2709	1.6406	1.0723	0.6623	0.769	1.5332		
		1.1477	1.0336	0.9872	0.3287	1.8526	1.8885	0.8588	1.41	1.5016	1.099	1.4899	1.0497		
		0.8581	0.8988	1.2414	0.9263	0.771	0.971	1.2381	0.5581	1.3681	1.2299	1.0137	0.6482		
		1.3022	1.4071	0.8712	1.301	1.467	0.5251	1.0389	0.7579	0.9632	0.6287	1.8586	1.933		
		1.591	1.2066	1.0696	1.0119	0.5612	1.3968	0.8877	0.494	1.0189	0.9813	0.874	0.9798		
		1.5795	1.7177	0.5209	1.3507	0.8388	0.8326	0.8293	1.6367	1.4409	1.2101	1.5522	0.9667		
		1.4323	1.5194	1.7513	0.7904	1.1546	1.3905	1.3554	1.1686	1.6741	1.2316	1.0965	1.0286		
		
1:00	25.40	1.6085	1.293	1.2243	1.4808	1.4276	1.2565	1.6531	1.7656	1.5278	1.6644	1.6603	1.5729		
		1.5677	1.5711	1.1125	1.0985	1.2668	1.3439	1.2917	1.619	1.4921	1.2701	1.2892	1.4637		
		1.1907	1.6909	1.207	1.0889	1.8369	1.9352	1.2128	1.5032	1.5696	1.3042	1.5558	1.2587		
		1.1443	1.4531	1.1649	1.2693	1.0228	1.0179	1.179	1.0742	1.7553	1.3643	1.2909	1.396		
		1.6021	1.2593	1.1763	1.4062	1.4041	1.0667	1.256	0.8974	1.1753	1.1559	1.933	1.9975		
		1.5798	1.4971	1.2492	1.1813	1.2573	1.3397	1.1459	1.184	1.1607	1.282	1.1901	1.3971		
		1.5328	1.6919	1.3576	1.4641	1.2674	1.3431	1.3933	1.7457	1.6047	1.4194	1.7529	1.3128		
		1.5736	1.6963	1.7967	1.5232	1.4279	1.6896	1.2976	1.2925	1.9244	1.3959	1.4448	1.3285		
		
1:20	25.40	1.4683	1.119	1.062	1.4449	1.373	0.6002	1.5778	1.6669	1.4238	1.5944	1.5612	1.5079		
		1.4583	1.5067	1.07	0.8622	1.0891	1.3336	1.3561	1.6027	0.9454	0.8476	1.0806	1.4891		
		1.0641	1.3175	0.8743	0.4067	1.8364	1.8596	0.6965	1.5747	1.4512	0.9266	1.4642	1.0643		
		0.7838	0.7776	1.161	0.9613	0.6908	0.6716	1.132	0.7623	1.8301	1.2107	1.331	0.7972		
		1.2211	1.2048	0.8715	1.3411	1.4228	0.5048	1.0236	0.5157	0.9204	0.6456	1.8967	1.9153		
		1.4587	1.0606	1.1443	0.8513	0.5872	1.3827	0.574	0.5197	0.8618	0.9984	0.994	0.9564		
		1.4396	1.5565	0.478	1.3951	0.4509	0.8204	0.723	1.5772	1.4999	1.2591	1.552	0.905		
		1.4324	1.5465	1.6529	1.1291	1.2433	1.2959	1.0611	1.0527	1.5574	1.1931	1.3101	1.0829		
		
1:40	25.50	1.3972	1.0695	1.1526	1.4692	1.3985	0.559	1.5872	1.6995	1.4351	1.5736	1.5387	1.4971		
		1.5785	1.5642	1.1441	0.9488	1.1445	1.2964	1.3658	1.6306	0.8621	0.9323	1.0851	1.5426		
		1.0025	1.0368	0.8638	0.3019	1.8317	1.8803	0.6752	1.5432	1.428	1.0256	1.4958	1.0996		
		0.8319	0.6523	1.1515	0.9259	0.7743	0.8397	1.578	0.5097	1.7238	1.1582	1.1813	0.6755		
		1.1992	1.3486	0.8234	1.3501	1.4412	0.4083	1.1341	0.4853	0.8671	0.693	1.8827	1.9155		
		1.5272	1.0965	1.1733	1.0276	0.3598	1.3799	0.584	0.5267	0.8351	0.9508	0.9806	0.7162		
		1.4977	1.6243	0.3513	1.368	0.6088	0.6967	0.6907	1.5117	1.4839	1.2014	1.5241	1.0328		
		1.3662	1.5355	1.6186	0.6352	1.0176	1.1831	1.0826	0.9806	1.5222	1.0507	1.1335	0.9109		
		
2:00	25.50	1.5622	1.2334	1.151	1.289	1.2633	1.2226	1.3988	1.6607	1.4595	1.5762	1.5885	1.6257		
		1.5683	1.6526	1.2587	1.2114	1.3748	1.3831	1.3211	1.5294	1.6002	1.5572	1.5066	1.5347		
		1.2538	1.5745	1.3803	1.1131	1.6815	1.5626	1.3681	1.5185	1.5501	1.3783	1.7306	1.3479		
		1.1801	1.2991	1.2036	1.2896	1.1269	1.3515	1.3223	1.1455	1.7647	1.5482	1.4433	1.2952		
		1.6962	1.2884	1.2719	1.4041	1.4053	1.3238	1.3114	1.2819	1.2253	1.2095	1.8447	1.8391		
		1.6026	1.4989	1.3	1.2795	1.308	1.3039	1.2755	1.2946	1.333	1.3613	1.3888	1.527		
		1.5798	1.6446	1.5344	1.4447	1.3328	1.4996	1.4028	1.6223	1.6426	1.5425	1.7234	1.4039		
		1.6067	1.7524	1.8378	1.531	1.4412	1.4264	1.3398	1.3224	1.947	1.4861	1.4404	1.4867		
		
2:20	25.60	1.4849	1.1316	1.0967	1.4941	1.3276	1.1787	1.6654	1.7402	1.4179	1.6393	1.5493	1.6767		
		1.6142	1.7153	1.2322	1.0212	1.4877	1.3452	1.5762	1.6535	1.2799	1.2672	1.3607	1.5853		
		1.1452	1.2823	0.9681	0.7544	1.9136	1.8919	0.9817	1.6792	1.5577	1.2633	1.6134	1.19		
		0.8773	1.2674	1.3445	1.0612	0.8139	1.1548	1.0173	1.0989	2.1267	1.3462	1.508	1.0075		
		1.4362	1.2966	0.9542	1.391	1.3915	0.8167	1.2464	0.7892	0.9223	0.7886	1.9345	1.9906		
		1.5396	1.3704	1.076	1.2283	0.8775	1.386	0.7218	0.7323	1.0443	1.1771	1.0903	0.9514		
		1.4543	1.6467	0.7823	1.4583	0.5966	1.1496	0.9692	1.5419	1.5579	1.4042	1.5722	1.1663		
		1.3468	1.6295	1.5831	1.2138	1.2179	1.2519	1.1656	1.1319	1.5989	1.2477	1.2651	1.1526		
		
2:40	25.60	1.4096	1.138	1.1643	1.5233	1.3611	1.0968	1.6434	1.8479	1.4017	1.6435	1.5499	1.6288		
		1.6452	1.741	1.2285	1.1165	1.4538	1.431	1.5694	1.6634	1.025	1.1027	1.0622	1.6144		
		1.0766	1.2128	1.0055	0.5397	1.851	1.8816	0.812	1.5241	1.6092	1.2411	1.6347	1.1889		
		1.1406	0.9078	1.4731	0.987	1.0769	1.2076	1.3943	0.884	2.0475	1.2399	1.3729	0.8106		
		1.6009	1.3993	0.978	1.4292	1.4118	0.5613	1.2181	0.8621	0.8421	0.6138	1.9296	1.9599		
		1.5599	1.3641	1.0704	1.2305	0.4913	1.3329	0.6222	0.7001	1.0233	1.1858	1.1913	0.7028		
		1.5199	1.7034	0.5171	1.4325	0.5262	0.9561	0.8681	1.5222	1.5676	1.3958	1.6022	0.9521		
		1.3115	1.5633	1.4962	0.8949	1.0458	1.1254	1.1231	1.0851	1.5351	1.4026	1.3746	1.1121		
		
~End
