##BLOCKS= 1          
Plate:	Plate#1	1.3	PlateFormat	Well Scan	Absorbance	Raw	FALSE	9	Fill	3				1	600	1	12	96	1	8	None	
	Temperature(¡C)	1	2	3	4	5	6	7	8	9	10	11	12		
0:00	24.10	1.6515	1.3398	1.4039	1.5021	1.5469	1.445	1.1413	1.6137	0.9152	0.7339	1.8726	1.8588		
		1.3928	1.6627	1.2459	1.1209	1.4236	1.2298	1.2519	0.7861	0.9843	1.1283	1.0598	1.5508		
		1.4967	1.6038	0.7385	1.4392	1.3703	0.3009	0.518	1.5535	1.5105	1.2824	1.5561	0.8961		
		1.4316	1.6729	1.8272	0.5874	1.3998	1.1809	1.2689	0.9811	1.6035	1.2451	1.2584	1.311		
		1.0637	1.6204	1.4915	1.4546	0.9881	1.3484	1.325	1.2498	1.1918	1.8271	1.6225	1.4773		
		1.346	1.727	1.3662	1.529	1.7412	0.7962	1.1694	1.6103	1.4227	0.8884	1.7643	1.6141		
		1.704	1.0413	1.4367	1.4855	0.8204	1.4381	1.4051	1.6152	1.3092	1.2842	1.7061	1.4955		
		2.1271	1.9509	1.4506	1.1654	1.6674	1.2527	1.3146	1.6057	1.6434	0.8518	1.4835	1.8033		
		
0:20	24.10	1.4941	1.3205	1.3719	1.5169	1.535	1.4641	1.0851	1.5645	0.8415	0.5536	1.8725	1.8875		
		1.3204	1.6913	1.2351	1.1073	1.5779	1.1911	1.2351	0.5091	1.0747	1.1217	0.9665	1.5901		
		1.3386	1.5639	0.8076	1.4746	1.6478	0.4546	0.5802	1.5484	1.5036	1.228	1.4892	0.8708		
		1.4118	1.6621	1.8211	1.0201	1.0477	1.2552	1.2949	0.933	1.4726	1.1693	1.3521	1.3692		
		0.6575	1.6063	1.4646	1.4088	0.8397	1.4591	1.184	1.1041	0.93	1.8169	1.6406	1.3839		
		1.2854	1.7961	1.3187	1.5759	1.8062	0.9794	0.63	1.5643	1.4622	0.8584	1.7754	1.6607		
		1.6555	1.3079	1.3933	1.356	1.2813	1.3174	1.4053	1.6461	1.1986	1.3495	1.7276	1.5999		
		2.1008	1.944	1.5891	1.1187	1.5967	1.1924	1.193	1.6119	1.6944	0.9746	1.4847	1.752		
		
0:40	24.20	1.6785	1.4295	1.4159	1.5989	1.4658	1.3832	1.1471	1.6471	0.9118	0.5795	1.9066	1.916		
		1.3373	1.767	1.2004	1.3633	1.5396	1.3685	1.2521	0.4937	1.2943	1.1548	0.9838	1.7167		
		1.5942	1.6787	0.7116	1.6068	1.6771	0.6545	0.6692	1.6081	1.5409	1.3274	1.6325	0.9769		
		1.6766	1.7138	1.8993	1.2064	0.8114	1.3998	1.4967	1.1392	1.6834	1.2527	1.4541	1.5029		
		1.0849	1.6551	1.5634	1.5875	1.2237	1.5778	1.306	1.1343	1.1542	1.8457	1.6278	1.4416		
		1.4787	1.8044	1.5266	1.6594	1.908	1.0995	0.8336	1.5696	1.5694	0.9698	1.8114	1.7384		
		1.7755	1.5215	1.5405	1.4789	1.283	1.4288	1.4964	1.7251	1.3354	1.4581	1.8492	1.5683		
		2.1223	1.983	1.627	1.2991	1.5899	1.2528	1.4282	1.68	1.7503	1.2094	1.5078	1.8949		
		
1:00	24.20	1.6735	1.3474	1.4811	1.48	1.6699	1.4221	1.0578	1.5685	0.7741	0.5272	1.851	1.8194		
		1.3535	1.6654	1.2017	1.0106	1.5863	1.2274	1.2478	0.6828	0.8929	1.1081	1.0153	1.4961		
		1.4182	1.5777	0.785	1.4376	1.604	0.2739	0.311	1.4788	1.4749	1.2205	1.4603	0.9056		
		1.2907	1.6655	1.804	0.6815	1.2758	1.2226	1.1274	1.2326	1.4786	1.1815	1.3174	1.4012		
		0.991	1.5882	1.3436	1.5741	0.8187	1.0647	1.2191	1.4287	0.8236	1.7771	1.6264	1.4262		
		1.2218	1.7878	1.4315	1.5439	1.7188	0.6718	0.5844	1.4765	1.4331	0.5219	1.7546	1.6053		
		1.6954	1.0278	1.3409	1.4534	0.7097	1.347	1.4718	1.6064	1.2314	1.309	1.6656	1.5958		
		2.1826	1.9122	1.4267	0.8908	1.5356	1.1191	1.2331	1.6086	1.6367	0.6316	1.4086	1.6727		
		
1:20	24.30	1.5229	1.3065	1.4154	1.4738	1.5967	1.4418	1.0549	1.5363	0.7695	0.4501	1.8886	1.7933		
		1.2228	1.647	1.1493	1.1575	1.6207	1.3285	1.235	0.2905	0.872	1.1093	0.9039	1.5467		
		1.4396	1.543	0.52	1.4881	1.6481	0.5007	0.2774	1.4777	1.4511	1.2124	1.4424	0.8572		
		1.2106	1.6847	1.813	0.9769	1.0947	1.3538	1.1648	1.3374	1.3902	1.1471	1.3548	1.2801		
		0.3647	1.5772	1.333	1.3881	0.7193	1.1436	1.1515	0.9506	0.614	1.7633	1.6302	1.3815		
		1.1792	1.764	1.4329	1.5491	1.7152	0.7433	0.6128	1.5188	1.448	0.6084	1.7151	1.6359		
		1.6946	1.0418	1.2672	1.4463	1.0548	1.3189	1.4204	1.6474	1.1697	1.2133	1.719	1.5491		
		2.1094	1.9393	1.4993	0.8789	1.5844	1.056	1.0909	1.5705	1.6536	0.7171	1.4089	1.6778		
		
1:40	24.30	1.706	1.5388	1.4606	1.5956	1.669	1.4942	1.1204	1.6106	0.8875	0.6599	1.8818	1.8455		
		1.2758	1.8077	1.2578	1.1721	1.6687	1.3373	1.2557	0.5985	1.2163	1.2172	0.912	1.7494		
		1.5708	1.6375	0.5775	1.6183	1.6998	0.7306	0.4684	1.5238	1.4871	1.3714	1.5158	0.9895		
		1.4198	1.7176	1.902	1.1447	0.7916	1.5772	1.4262	1.1457	1.5901	1.2085	1.498	1.437		
		0.8438	1.541	1.4942	1.4404	1.2011	1.4903	1.3002	0.8297	0.5767	1.7821	1.6548	1.3921		
		1.3284	1.7033	1.6349	1.5443	1.8297	0.8001	0.5152	1.5662	1.5326	0.4496	1.7911	1.7253		
		1.7799	1.3521	1.3378	1.4974	0.9541	1.3593	1.5903	1.726	1.3007	1.334	1.7385	1.5551		
		2.0897	1.9795	1.5743	1.0957	1.5578	1.1565	1.2751	1.5294	1.7368	0.8905	1.4906	1.8331		
		
2:00	24.40	1.8005	1.4721	1.5267	1.5677	1.4934	1.4388	1.1808	1.6279	0.8829	0.8277	1.884	1.956		
		1.32	1.756	1.2094	1.315	1.5617	1.6528	1.4051	0.8741	1.0291	1.2118	1.1045	1.6132		
		1.4463	1.6823	0.86	1.5225	1.6456	0.444	0.3894	1.5195	1.5425	1.3177	1.4918	1.0426		
		1.2726	1.6838	1.8251	1.1211	1.3398	1.4212	1.2441	1.3558	1.6025	1.3548	1.3396	1.5222		
		1.3796	1.4447	1.4024	2.1018	1.0374	1.0452	1.4366	0.9037	0.5516	1.8081	1.6947	1.4981		
		1.3297	1.7344	1.2801	1.5664	1.7766	0.823	0.6622	1.4832	1.4621	0.9622	1.7597	1.6498		
		1.6919	1.0704	1.3524	1.5952	0.6999	1.3949	1.4746	1.6573	1.3763	1.3494	1.7592	1.5837		
		1.9991	1.9663	1.4097	0.8528	1.4496	1.1262	1.1334	1.5366	1.6429	0.8047	1.4884	1.7478		
		
2:20	24.40	1.7445	1.4676	1.6552	1.5458	1.559	1.5601	1.1915	1.6523	0.8925	0.8474	1.918	1.7614		
		1.2814	1.764	1.2149	1.1371	1.5893	1.5363	1.3965	1.0781	1.1328	1.1495	1.1899	1.6724		
		1.4865	1.6362	0.5753	1.5682	1.6672	0.5772	0.3233	1.5472	1.5305	1.4594	1.4553	1.011		
		1.2349	1.6651	1.8326	1.0926	1.1299	1.5669	1.2069	1.279	1.5382	1.346	1.3982	1.5289		
		0.8874	1.4251	1.3007	1.6836	0.9138	1.1671	1.2929	0.7123	0.5359	1.7886	1.6407	1.4424		
		1.353	1.7918	1.4459	1.6343	1.7838	0.9196	0.5147	1.5223	1.4684	0.6863	1.759	1.681		
		1.6713	1.021	1.3204	1.5404	1.1756	1.502	1.5011	1.6604	1.3095	1.2347	1.8287	1.5413		
		1.9563	1.967	1.4508	0.9459	1.5726	1.1013	1.1209	1.5966	1.6655	0.7822	1.454	1.7269		
		
2:40	24.50	1.8257	1.5928	1.5627	1.6698	1.8231	1.6315	1.3017	1.6942	1.1934	1.2159	1.9591	1.9658		
		1.4073	1.7319	1.2787	1.2605	1.709	1.3833	1.2967	0.948	1.2729	1.2212	1.2607	1.8853		
		1.6	1.78	0.973	1.646	1.6519	1.1126	0.8219	1.7345	1.6029	1.638	1.5811	1.1267		
		1.6168	1.7804	1.9093	1.5166	1.1915	1.633	1.492	1.3105	1.8121	1.4629	1.5843	1.6036		
		1.2869	1.4877	1.4502	1.769	1.3363	1.4657	1.462	0.8692	0.8744	1.9191	1.6735	1.4688		
		1.5248	1.8015	1.7026	1.7624	1.868	0.915	0.8365	1.6744	1.5692	0.9259	1.7901	1.7787		
		1.745	1.4132	1.4828	1.5157	1.1197	1.4612	1.6312	1.7584	1.3674	1.3943	1.8552	1.5763		
		2.0508	2.0753	1.5515	1.204	1.5987	1.1995	1.2999	1.5301	1.7177	0.979	1.4787	1.8768		
		
~End
